File: data/Temperature Sweep/Td.txt
#EXPORTTYPE:  	DATA COMPARE                 	DATA COMPARE                 	DATA COMPARE
#FILE:        	3.ngb-dm2                    	5.ngb-dm2                    	10.ngb-dm2
#FORMAT:      	NETZSCH5                     	NETZSCH5                     	NETZSCH5
#FTYPE:       	ANSI                         	ANSI                         	ANSI
#IDENTITY:    	3                            	2                            	1
#DECIMAL:     	POINT                        	POINT                        	POINT
#SEPARATOR:   	TAB                          	TAB                          	TAB
#MTYPE:       	DMA                          	DMA                          	DMA
#INSTRUMENT:  	NETZSCH DMA 242              	NETZSCH DMA 242              	NETZSCH DMA 242
#PROJECT:     	Amtrol                       	Amtrol                       	Amtrol
#DATE/TIME:   	5/29/2024 12:46:57 PM (UTC+1)	5/29/2024 11:00:19 AM (UTC+1)	5/29/2024 9:25:24 AM (UTC+1)
#LABORATORY:  	Piep                         	Piep                         	Piep
#OPERATOR:    	LG                           	LG                           	LG
#REMARK:
#SAMPLEHOLDER:	SingleCantilever16           	SingleCantilever16           	SingleCantilever16
#SAMPLE:      	Resin                        	Resin                        	Resin
#SAMPLEDIM/MM:	16.000x10.660x3.660          	16.000x10.560x3.640          	16.000x10.720x3.700
#MATERIAL:
#CORR. CODE:  	0                            	0                            	0
#RANGE:       	90.0°C/3.0(K/min)/260.0°C    	90.0°C/5.0(K/min)/260.0°C    	25.0°C/10.0(K/min)/400.0°C
#SEGMENT:     	S1/2                         	S1/2                         	S1/2
#SEG. 1:      	90.0°C/3.0(K/min)/260.0°C    	90.0°C/5.0(K/min)/260.0°C    	25.0°C/10.0(K/min)/400.0°C

##Temp./°C	tan d(1.000 Hz)	tan d(1.000 Hz)	tan d(1.000 Hz)
 24.59108	              	              	 1.570357e-002
 25.59108	              	              	 1.559059e-002
 26.59108	              	              	 1.526162e-002
 27.59108	              	              	 1.562012e-002
 28.59108	              	              	 1.526992e-002
 29.59108	              	              	 1.549785e-002
 30.59108	              	              	 1.576001e-002
 31.59108	              	              	 1.569187e-002
 32.59108	              	              	 1.570825e-002
 33.59108	              	              	 1.569778e-002
 34.59108	              	              	 1.570246e-002
 35.59108	              	              	 1.570520e-002
 36.59108	              	              	 1.569142e-002
 37.59108	              	              	 1.569293e-002
 38.59108	              	              	 1.570085e-002
 39.59108	              	              	 1.570216e-002
 40.59108	              	              	 1.570132e-002
 41.59108	              	              	 1.564776e-002
 42.59108	              	              	 1.598869e-002
 43.59108	              	              	 1.615311e-002
 44.59108	              	              	 1.574089e-002
 45.59108	              	              	 1.560251e-002
 46.59108	              	              	 1.614424e-002
 47.59108	              	              	 1.597205e-002
 48.59108	              	              	 1.559635e-002
 49.59108	              	              	 1.579645e-002
 50.59108	              	              	 1.610921e-002
 51.59108	              	              	 1.632168e-002
 52.59108	              	              	 1.589074e-002
 53.59108	              	              	 1.577442e-002
 54.59108	              	              	 1.623310e-002
 55.59108	              	              	 1.620071e-002
 56.59108	              	              	 1.620861e-002
 57.59108	              	              	 1.626093e-002
 58.59108	              	              	 1.598607e-002
 59.59108	              	              	 1.568653e-002
 60.59108	              	              	 1.605217e-002
 61.59108	              	              	 1.624972e-002
 62.59108	              	              	 1.667974e-002
 63.59108	              	              	 1.658347e-002
 64.59108	              	              	 1.622045e-002
 65.59108	              	              	 1.668458e-002
 66.59108	              	              	 1.656638e-002
 67.59108	              	              	 1.620977e-002
 68.59108	              	              	 1.615900e-002
 69.59108	              	              	 1.621815e-002
 70.59108	              	              	 1.613143e-002
 71.59108	              	              	 1.635204e-002
 72.59108	              	              	 1.671092e-002
 73.59108	              	              	 1.619642e-002
 74.59108	              	              	 1.641996e-002
 75.59108	              	              	 1.673152e-002
 76.59108	              	              	 1.672996e-002
 77.59108	              	              	 1.676398e-002
 78.59108	              	              	 1.632477e-002
 79.59108	              	              	 1.613777e-002
 80.59108	              	              	 1.614139e-002
 81.59108	              	              	 1.617979e-002
 82.59108	              	              	 1.665936e-002
 83.59108	              	              	 1.645032e-002
 84.59108	              	              	 1.616362e-002
 85.59108	              	              	 1.656817e-002
 86.59108	              	              	 1.638487e-002
 87.59108	 1.391002e-002	              	 1.617671e-002
 88.59108	 1.391002e-002	              	 1.643344e-002
 89.59108	 1.391016e-002	              	 1.673285e-002
 90.59108	 1.337464e-002	 1.279987e-002	 1.668532e-002
 91.59108	 1.395083e-002	 1.278153e-002	 1.667702e-002
 92.59108	 1.392420e-002	 1.278351e-002	 1.668955e-002
 93.59108	 1.340172e-002	 1.225366e-002	 1.667845e-002
 94.59108	 1.391272e-002	 1.281400e-002	 1.665657e-002
 95.59108	 1.405288e-002	 1.226620e-002	 1.667035e-002
 96.59108	 1.444600e-002	 1.277717e-002	 1.673323e-002
 97.59108	 1.445032e-002	 1.278216e-002	 1.654922e-002
 98.59108	 1.445794e-002	 1.279064e-002	 1.616960e-002
 99.59108	 1.490019e-002	 1.324739e-002	 1.673216e-002
100.591	 1.444186e-002	 1.262714e-002	 1.666976e-002
101.591	 1.500128e-002	 1.337126e-002	 1.660391e-002
102.591	 1.492989e-002	 1.330938e-002	 1.683646e-002
103.591	 1.508159e-002	 1.369426e-002	 1.722695e-002
104.591	 1.549611e-002	 1.387607e-002	 1.721928e-002
105.591	 1.574137e-002	 1.376031e-002	 1.725199e-002
106.591	 1.547664e-002	 1.374387e-002	 1.702018e-002
107.591	 1.572977e-002	 1.412444e-002	 1.666672e-002
108.591	 1.613515e-002	 1.409320e-002	 1.715039e-002
109.591	 1.608074e-002	 1.440804e-002	 1.676929e-002
110.591	 1.607758e-002	 1.385337e-002	 1.696532e-002
111.591	 1.662040e-002	 1.439742e-002	 1.769375e-002
112.591	 1.661755e-002	 1.435734e-002	 1.728317e-002
113.591	 1.608595e-002	 1.499562e-002	 1.730160e-002
114.591	 1.691080e-002	 1.497227e-002	 1.775868e-002
115.591	 1.756092e-002	 1.510902e-002	 1.772732e-002
116.591	 1.717307e-002	 1.556416e-002	 1.768664e-002
117.591	 1.766387e-002	 1.554228e-002	 1.776181e-002
118.591	 1.813901e-002	 1.546425e-002	 1.756566e-002
119.591	 1.881068e-002	 1.658557e-002	 1.719334e-002
120.591	 1.918237e-002	 1.604303e-002	 1.748689e-002
121.591	 1.917818e-002	 1.618966e-002	 1.773516e-002
122.591	 1.995045e-002	 1.660824e-002	 1.766330e-002
123.591	 2.049839e-002	 1.654230e-002	 1.791940e-002
124.591	 2.104466e-002	 1.714967e-002	 1.825797e-002
125.591	 2.097112e-002	 1.720570e-002	 1.822504e-002
126.591	 2.237224e-002	 1.716046e-002	 1.877295e-002
127.591	 2.290629e-002	 1.771462e-002	 1.884261e-002
128.591	 2.410766e-002	 1.767236e-002	 1.875534e-002
129.591	 2.494835e-002	 1.834781e-002	 1.872686e-002
130.591	 2.679160e-002	 1.829739e-002	 1.932667e-002
131.591	 2.787565e-002	 1.766658e-002	 1.933816e-002
132.591	 2.949343e-002	 1.887164e-002	 1.933339e-002
133.591	 3.131111e-002	 1.894300e-002	 2.000539e-002
134.591	 3.360358e-002	 1.990835e-002	 2.032917e-002
135.591	 3.753022e-002	 1.994198e-002	 2.031721e-002
136.591	 4.019620e-002	 2.022033e-002	 2.066451e-002
137.591	 4.553033e-002	 2.098945e-002	 2.121695e-002
138.591	 5.139853e-002	 2.131731e-002	 2.157990e-002
139.591	 5.865855e-002	 2.215455e-002	 2.135304e-002
140.591	 6.904245e-002	 2.214373e-002	 2.168407e-002
141.591	 8.021307e-002	 2.352813e-002	 2.201815e-002
142.591	 9.077836e-002	 2.430791e-002	 2.261987e-002
143.591	       0.11195	 2.531042e-002	 2.409512e-002
144.591	       0.14701	 2.598694e-002	 2.442645e-002
145.591	       0.16896	 2.852282e-002	 2.468181e-002
146.591	       0.20572	 2.924102e-002	 2.574426e-002
147.591	       0.27237	 3.027515e-002	 2.672442e-002
148.591	       0.31623	 3.220276e-002	 2.745349e-002
149.591	       0.39887	 3.455372e-002	 2.858973e-002
150.591	       0.46954	 3.882332e-002	 2.938777e-002
151.591	       0.56493	 4.141210e-002	 2.988653e-002
152.591	       0.66782	 4.383458e-002	 3.125088e-002
153.591	       0.76200	 5.218992e-002	 3.320009e-002
154.591	       0.85862	 5.521481e-002	 3.486479e-002
155.591	       0.96788	 6.657797e-002	 3.910298e-002
156.591	       1.00361	 8.243487e-002	 4.242333e-002
157.591	       1.02245	 9.063863e-002	 4.492131e-002
158.591	       1.00496	       0.10185	 4.868694e-002
159.591	       0.94250	       0.13244	 5.625333e-002
160.591	       0.83896	       0.17088	 6.144459e-002
161.591	       0.75215	       0.19172	 6.697290e-002
162.591	       0.68883	       0.21994	 7.424218e-002
163.591	       0.58729	       0.32299	 8.292094e-002
164.591	       0.47989	       0.39512	 9.901812e-002
165.591	       0.42178	       0.51923	       0.12035
166.591	       0.34202	       0.55632	       0.13274
167.591	       0.29942	       0.70429	       0.14423
168.591	       0.22879	       0.86163	       0.21377
169.591	       0.19468	       0.91902	       0.27736
170.591	       0.15770	       0.96383	       0.34510
171.591	       0.12421	       1.01396	       0.42205
172.591	       0.10486	       0.98672	       0.49882
173.591	 8.759690e-002	       0.96717	       0.62071
174.591	 6.682347e-002	       0.92058	       0.72092
175.591	 5.422282e-002	       0.77158	       0.82645
176.591	 5.055819e-002	       0.69784	       0.80777
177.591	 3.494280e-002	       0.58497	       0.76135
178.591	 3.490008e-002	       0.53798	       0.66718
179.591	 2.662486e-002	       0.43553	       0.54889
180.591	 2.399873e-002	       0.39349	       0.45998
181.591	 2.478233e-002	       0.36162	       0.41108
182.591	 1.890003e-002	       0.28444	       0.36449
183.591	 1.885972e-002	       0.21971	       0.25456
184.591	 1.854321e-002	       0.19888	       0.16835
185.591	 1.383586e-002	       0.18362	       0.14118
186.591	 1.360075e-002	       0.12412	       0.11805
187.591	 1.331937e-002	       0.10845	 8.301323e-002
188.591	 1.235785e-002	 9.065660e-002	 6.506805e-002
189.591	 1.123433e-002	 6.342500e-002	 5.480039e-002
190.591	 8.521289e-003	 5.667733e-002	 3.980967e-002
191.591	 5.830711e-003	 4.531129e-002	 3.012897e-002
192.591	 1.341723e-002	 4.618205e-002	 2.777959e-002
193.591	 8.608567e-003	 3.476726e-002	 2.117482e-002
194.591	 7.979863e-003	 3.027965e-002	 1.351011e-002
195.591	 8.106799e-003	 2.516617e-002	 1.914453e-002
196.591	 9.099439e-003	 1.959453e-002	 1.438513e-002
197.591	 9.043228e-003	 1.932344e-002	 1.344310e-002
198.591	 8.326517e-003	 1.969281e-002	 1.328297e-002
199.591	 3.410209e-003	 1.676927e-002	 1.065598e-002
200.591	 8.959925e-003	 1.345904e-002	 9.984185e-003
201.591	 8.460642e-003	 1.381626e-002	 9.939047e-003
202.591	 8.374275e-003	 1.387615e-002	 8.419155e-003
203.591	 3.931883e-003	 1.461224e-002	 1.070443e-002
204.591	 2.690885e-003	 9.263343e-003	 8.498598e-003
205.591	 8.728536e-003	 9.677376e-003	 8.464292e-003
206.591	 8.560416e-003	 3.861054e-003	 8.445039e-003
207.591	-1.097807e-003	 7.368016e-003	 3.936209e-003
208.591	 3.482097e-003	 9.909163e-003	 8.411000e-003
209.591	 8.827648e-003	 1.080843e-002	 8.660422e-003
210.591	 3.363411e-003	 7.922689e-003	 8.535735e-003
211.591	 3.520044e-003	 8.585567e-003	 8.472457e-003
212.591	 5.707899e-003	 8.548995e-003	 4.597488e-003
213.591	 1.027573e-002	 5.361109e-003	 3.312701e-003
214.591	       0.18719	 4.505715e-003	-5.598296e-004
215.591	       0.36409	 5.218147e-003	 4.675297e-003
216.591	       0.56258	 8.599287e-003	 3.778044e-003
217.591	       0.63447	 7.301790e-003	 3.205612e-003
218.591	       0.73393	 8.702419e-003	 3.974469e-003
219.591	       0.90390	 6.649119e-003	 7.392164e-003
220.591	       1.01843	 5.021755e-003	 3.434103e-003
221.591	       1.20456	 5.334147e-003	 8.805944e-003
222.591	       1.43913	 4.162454e-003	 5.376876e-003
223.591	       1.57359	 7.793222e-003	 4.207242e-003
224.591	       1.54592	 6.491447e-003	-1.292303e-003
225.591	       1.42879	-3.272216e-004	 3.205427e-003
226.591	       1.32899	 3.609274e-003	 3.547109e-003
227.591	       1.37045	 8.372613e-003	 8.467949e-003
228.591	       1.39099	 7.832932e-003	 3.636084e-003
229.591	       1.63079	-1.121732e-003	 3.413444e-003
230.591	       1.77288	 3.898463e-003	 1.525047e-004
231.591	       1.93721	 2.938606e-003	 3.886157e-003
232.591	       1.96637	 3.274986e-003	 3.491313e-003
233.591	       1.77211	 3.198826e-003	-1.049250e-003
234.591	       1.64533	 3.370961e-003	 1.851739e-003
235.591	       1.54062	 3.391869e-003	 3.523589e-003
236.591	       1.59094	 3.331885e-003	 3.496190e-003
237.591	       1.67928	 3.278897e-003	 3.496190e-003
238.591	       1.83018	 3.331596e-003
239.591	       1.89303
240.591	       1.62037
241.591	       1.48545
242.591	       1.67197
243.591	       1.82352
244.591	       1.81377
245.591	       1.87419
246.591	       1.74334
247.591	       1.79707
248.591	       1.82650
249.591	       1.95252
250.591	       2.07068
251.591	       1.78049